trial_id	subject	run	onset	duration	trial_type	material	response	beta_index	include_mvpa	source_events	source_preproc_bold
sub-002_run-03_trial-001	sub-002	03	10.5	9.0	stimulation	V4	0	0	True	data/bids_dataset\sub-002\func\sub-002_task-tactile_run-03_events.tsv	data\derivatives\sub-002\func\sub-002_task-tactile_run-03_space-T1w_desc-preproc_bold.nii.gz
sub-002_run-03_trial-002	sub-002	03	22.5	9.0	stimulation	Xn	0	1	True	data/bids_dataset\sub-002\func\sub-002_task-tactile_run-03_events.tsv	data\derivatives\sub-002\func\sub-002_task-tactile_run-03_space-T1w_desc-preproc_bold.nii.gz
sub-002_run-03_trial-003	sub-002	03	34.5	9.0	stimulation	I6	0	2	True	data/bids_dataset\sub-002\func\sub-002_task-tactile_run-03_events.tsv	data\derivatives\sub-002\func\sub-002_task-tactile_run-03_space-T1w_desc-preproc_bold.nii.gz
sub-002_run-03_trial-004	sub-002	03	46.5	9.0	stimulation	E6	0	3	True	data/bids_dataset\sub-002\func\sub-002_task-tactile_run-03_events.tsv	data\derivatives\sub-002\func\sub-002_task-tactile_run-03_space-T1w_desc-preproc_bold.nii.gz
sub-002_run-03_trial-005	sub-002	03	58.5	9.0	stimulation	Vn	0	4	True	data/bids_dataset\sub-002\func\sub-002_task-tactile_run-03_events.tsv	data\derivatives\sub-002\func\sub-002_task-tactile_run-03_space-T1w_desc-preproc_bold.nii.gz
sub-002_run-03_trial-006	sub-002	03	70.5	9.0	stimulation	Vn	1	5	False	data/bids_dataset\sub-002\func\sub-002_task-tactile_run-03_events.tsv	data\derivatives\sub-002\func\sub-002_task-tactile_run-03_space-T1w_desc-preproc_bold.nii.gz
sub-002_run-03_trial-007	sub-002	03	82.5	9.0	stimulation	X3	0	6	True	data/bids_dataset\sub-002\func\sub-002_task-tactile_run-03_events.tsv	data\derivatives\sub-002\func\sub-002_task-tactile_run-03_space-T1w_desc-preproc_bold.nii.gz
sub-002_run-03_trial-008	sub-002	03	94.5	9.0	stimulation	J8	0	7	True	data/bids_dataset\sub-002\func\sub-002_task-tactile_run-03_events.tsv	data\derivatives\sub-002\func\sub-002_task-tactile_run-03_space-T1w_desc-preproc_bold.nii.gz
sub-002_run-03_trial-009	sub-002	03	106.5	9.0	stimulation	N3	0	8	True	data/bids_dataset\sub-002\func\sub-002_task-tactile_run-03_events.tsv	data\derivatives\sub-002\func\sub-002_task-tactile_run-03_space-T1w_desc-preproc_bold.nii.gz
sub-002_run-03_trial-010	sub-002	03	118.5	9.0	stimulation	L6	0	9	True	data/bids_dataset\sub-002\func\sub-002_task-tactile_run-03_events.tsv	data\derivatives\sub-002\func\sub-002_task-tactile_run-03_space-T1w_desc-preproc_bold.nii.gz
sub-002_run-03_trial-011	sub-002	03	130.5	9.0	stimulation	Xx	0	10	True	data/bids_dataset\sub-002\func\sub-002_task-tactile_run-03_events.tsv	data\derivatives\sub-002\func\sub-002_task-tactile_run-03_space-T1w_desc-preproc_bold.nii.gz
sub-002_run-03_trial-012	sub-002	03	142.5	9.0	stimulation	On	0	11	True	data/bids_dataset\sub-002\func\sub-002_task-tactile_run-03_events.tsv	data\derivatives\sub-002\func\sub-002_task-tactile_run-03_space-T1w_desc-preproc_bold.nii.gz
sub-002_run-03_trial-013	sub-002	03	154.5	9.0	stimulation	M4	0	12	True	data/bids_dataset\sub-002\func\sub-002_task-tactile_run-03_events.tsv	data\derivatives\sub-002\func\sub-002_task-tactile_run-03_space-T1w_desc-preproc_bold.nii.gz
sub-002_run-03_trial-014	sub-002	03	166.5	9.0	stimulation	S8	0	13	True	data/bids_dataset\sub-002\func\sub-002_task-tactile_run-03_events.tsv	data\derivatives\sub-002\func\sub-002_task-tactile_run-03_space-T1w_desc-preproc_bold.nii.gz
sub-002_run-03_trial-015	sub-002	03	178.5	9.0	stimulation	O6	0	14	True	data/bids_dataset\sub-002\func\sub-002_task-tactile_run-03_events.tsv	data\derivatives\sub-002\func\sub-002_task-tactile_run-03_space-T1w_desc-preproc_bold.nii.gz
sub-002_run-03_trial-016	sub-002	03	190.5	9.0	stimulation	Sn	0	15	True	data/bids_dataset\sub-002\func\sub-002_task-tactile_run-03_events.tsv	data\derivatives\sub-002\func\sub-002_task-tactile_run-03_space-T1w_desc-preproc_bold.nii.gz
sub-002_run-03_trial-017	sub-002	03	202.5	9.0	stimulation	O4	0	16	True	data/bids_dataset\sub-002\func\sub-002_task-tactile_run-03_events.tsv	data\derivatives\sub-002\func\sub-002_task-tactile_run-03_space-T1w_desc-preproc_bold.nii.gz
sub-002_run-03_trial-018	sub-002	03	214.5	9.0	stimulation	Sn	0	17	True	data/bids_dataset\sub-002\func\sub-002_task-tactile_run-03_events.tsv	data\derivatives\sub-002\func\sub-002_task-tactile_run-03_space-T1w_desc-preproc_bold.nii.gz
sub-002_run-03_trial-019	sub-002	03	226.5	9.0	stimulation	Sn	1	18	False	data/bids_dataset\sub-002\func\sub-002_task-tactile_run-03_events.tsv	data\derivatives\sub-002\func\sub-002_task-tactile_run-03_space-T1w_desc-preproc_bold.nii.gz
sub-002_run-03_trial-020	sub-002	03	238.5	9.0	stimulation	J6	0	19	True	data/bids_dataset\sub-002\func\sub-002_task-tactile_run-03_events.tsv	data\derivatives\sub-002\func\sub-002_task-tactile_run-03_space-T1w_desc-preproc_bold.nii.gz
sub-002_run-03_trial-021	sub-002	03	250.5	9.0	stimulation	J12	0	20	True	data/bids_dataset\sub-002\func\sub-002_task-tactile_run-03_events.tsv	data\derivatives\sub-002\func\sub-002_task-tactile_run-03_space-T1w_desc-preproc_bold.nii.gz
sub-002_run-03_trial-022	sub-002	03	262.5	9.0	stimulation	S4	0	21	True	data/bids_dataset\sub-002\func\sub-002_task-tactile_run-03_events.tsv	data\derivatives\sub-002\func\sub-002_task-tactile_run-03_space-T1w_desc-preproc_bold.nii.gz
sub-002_run-03_trial-023	sub-002	03	274.5	9.0	stimulation	S6	0	22	True	data/bids_dataset\sub-002\func\sub-002_task-tactile_run-03_events.tsv	data\derivatives\sub-002\func\sub-002_task-tactile_run-03_space-T1w_desc-preproc_bold.nii.gz
sub-002_run-03_trial-024	sub-002	03	286.5	9.0	stimulation	S12	0	23	True	data/bids_dataset\sub-002\func\sub-002_task-tactile_run-03_events.tsv	data\derivatives\sub-002\func\sub-002_task-tactile_run-03_space-T1w_desc-preproc_bold.nii.gz
sub-002_run-03_trial-025	sub-002	03	298.5	9.0	stimulation	N8	0	24	True	data/bids_dataset\sub-002\func\sub-002_task-tactile_run-03_events.tsv	data\derivatives\sub-002\func\sub-002_task-tactile_run-03_space-T1w_desc-preproc_bold.nii.gz
sub-002_run-03_trial-026	sub-002	03	310.5	9.0	stimulation	R8	0	25	True	data/bids_dataset\sub-002\func\sub-002_task-tactile_run-03_events.tsv	data\derivatives\sub-002\func\sub-002_task-tactile_run-03_space-T1w_desc-preproc_bold.nii.gz
sub-002_run-03_trial-027	sub-002	03	322.5	9.0	stimulation	X8	0	26	True	data/bids_dataset\sub-002\func\sub-002_task-tactile_run-03_events.tsv	data\derivatives\sub-002\func\sub-002_task-tactile_run-03_space-T1w_desc-preproc_bold.nii.gz
sub-002_run-03_trial-028	sub-002	03	334.5	9.0	stimulation	Nx	0	27	True	data/bids_dataset\sub-002\func\sub-002_task-tactile_run-03_events.tsv	data\derivatives\sub-002\func\sub-002_task-tactile_run-03_space-T1w_desc-preproc_bold.nii.gz
sub-002_run-03_trial-029	sub-002	03	346.5	9.0	stimulation	Jn	0	28	True	data/bids_dataset\sub-002\func\sub-002_task-tactile_run-03_events.tsv	data\derivatives\sub-002\func\sub-002_task-tactile_run-03_space-T1w_desc-preproc_bold.nii.gz
sub-002_run-03_trial-030	sub-002	03	358.5	9.0	stimulation	Jn	1	29	False	data/bids_dataset\sub-002\func\sub-002_task-tactile_run-03_events.tsv	data\derivatives\sub-002\func\sub-002_task-tactile_run-03_space-T1w_desc-preproc_bold.nii.gz
sub-002_run-03_trial-031	sub-002	03	370.5	9.0	stimulation	N12	0	30	True	data/bids_dataset\sub-002\func\sub-002_task-tactile_run-03_events.tsv	data\derivatives\sub-002\func\sub-002_task-tactile_run-03_space-T1w_desc-preproc_bold.nii.gz
sub-002_run-03_trial-032	sub-002	03	382.5	9.0	stimulation	R92	0	31	True	data/bids_dataset\sub-002\func\sub-002_task-tactile_run-03_events.tsv	data\derivatives\sub-002\func\sub-002_task-tactile_run-03_space-T1w_desc-preproc_bold.nii.gz
sub-002_run-03_trial-033	sub-002	03	394.5	9.0	stimulation	J6	0	32	True	data/bids_dataset\sub-002\func\sub-002_task-tactile_run-03_events.tsv	data\derivatives\sub-002\func\sub-002_task-tactile_run-03_space-T1w_desc-preproc_bold.nii.gz
sub-002_run-03_trial-034	sub-002	03	406.5	9.0	stimulation	N12	0	33	True	data/bids_dataset\sub-002\func\sub-002_task-tactile_run-03_events.tsv	data\derivatives\sub-002\func\sub-002_task-tactile_run-03_space-T1w_desc-preproc_bold.nii.gz
sub-002_run-03_trial-035	sub-002	03	418.5	9.0	stimulation	R8	0	34	True	data/bids_dataset\sub-002\func\sub-002_task-tactile_run-03_events.tsv	data\derivatives\sub-002\func\sub-002_task-tactile_run-03_space-T1w_desc-preproc_bold.nii.gz
sub-002_run-03_trial-036	sub-002	03	430.5	9.0	stimulation	In	0	35	True	data/bids_dataset\sub-002\func\sub-002_task-tactile_run-03_events.tsv	data\derivatives\sub-002\func\sub-002_task-tactile_run-03_space-T1w_desc-preproc_bold.nii.gz
sub-002_run-03_trial-037	sub-002	03	442.5	9.0	stimulation	Mn	0	36	True	data/bids_dataset\sub-002\func\sub-002_task-tactile_run-03_events.tsv	data\derivatives\sub-002\func\sub-002_task-tactile_run-03_space-T1w_desc-preproc_bold.nii.gz
sub-002_run-03_trial-038	sub-002	03	454.5	9.0	stimulation	X4	0	37	True	data/bids_dataset\sub-002\func\sub-002_task-tactile_run-03_events.tsv	data\derivatives\sub-002\func\sub-002_task-tactile_run-03_space-T1w_desc-preproc_bold.nii.gz
sub-002_run-03_trial-039	sub-002	03	466.5	9.0	stimulation	X4	1	38	False	data/bids_dataset\sub-002\func\sub-002_task-tactile_run-03_events.tsv	data\derivatives\sub-002\func\sub-002_task-tactile_run-03_space-T1w_desc-preproc_bold.nii.gz
sub-002_run-03_trial-040	sub-002	03	478.5	9.0	stimulation	Jn	0	39	True	data/bids_dataset\sub-002\func\sub-002_task-tactile_run-03_events.tsv	data\derivatives\sub-002\func\sub-002_task-tactile_run-03_space-T1w_desc-preproc_bold.nii.gz
sub-002_run-03_trial-041	sub-002	03	490.5	9.0	stimulation	I4	0	40	True	data/bids_dataset\sub-002\func\sub-002_task-tactile_run-03_events.tsv	data\derivatives\sub-002\func\sub-002_task-tactile_run-03_space-T1w_desc-preproc_bold.nii.gz
sub-002_run-03_trial-042	sub-002	03	502.5	9.0	stimulation	V8	0	41	True	data/bids_dataset\sub-002\func\sub-002_task-tactile_run-03_events.tsv	data\derivatives\sub-002\func\sub-002_task-tactile_run-03_space-T1w_desc-preproc_bold.nii.gz
sub-002_run-03_trial-043	sub-002	03	514.5	9.0	stimulation	R20	0	42	True	data/bids_dataset\sub-002\func\sub-002_task-tactile_run-03_events.tsv	data\derivatives\sub-002\func\sub-002_task-tactile_run-03_space-T1w_desc-preproc_bold.nii.gz
sub-002_run-03_trial-044	sub-002	03	526.5	9.0	stimulation	J3	0	43	True	data/bids_dataset\sub-002\func\sub-002_task-tactile_run-03_events.tsv	data\derivatives\sub-002\func\sub-002_task-tactile_run-03_space-T1w_desc-preproc_bold.nii.gz
sub-002_run-03_trial-045	sub-002	03	538.5	9.0	stimulation	Px	0	44	True	data/bids_dataset\sub-002\func\sub-002_task-tactile_run-03_events.tsv	data\derivatives\sub-002\func\sub-002_task-tactile_run-03_space-T1w_desc-preproc_bold.nii.gz
